Folder: Analytical-Electrochemistry/DTA file processing

Note: README.md
Analytical-Electrochemistry is a collection of Jupyter Notebooks and Python scripts which analyze data from laboratory techniques used to characterize catalyst layer degradation and Proton Exchange Membrane Fuel Cell (PEMFC) performace. The Jupyter Notebooks provide an explanation of the technique used and the steps required to use the code. 

Steps to use Notebooks and scripts:
- Download Anaconda
- Open Jupyter Notebooks to use a Jupyter Notebook 
- Open Spyder to use a Python script
- Download entire folder containing script of interest as well as supporting files and images
- Navigate to folder containing script of interest in Jupyter Notebooks or in the Files tab of Spyder
- Open and run script
- For the Mass Activity tutorial, both of the .py files will need to be open

File: Sample dta file.DTA
EXPLAIN
TAG	CV
TITLE	LABEL	Cyclic Voltammetry	Test &Identifier
DATE	LABEL	6/15/2022	Date
TIME	LABEL	22:13:34	Time
NOTES	NOTES	1	&Notes...

PSTAT	PSTAT	REF3000-35148	Potentiostat
VINIT	POTEN	5.00000E-002	F	Initial &E (V)
VLIMIT1	POTEN	1.20000E+000	F	Scan Limit &1 (V)
VLIMIT2	POTEN	5.00000E-002	F	Scan Limit &2 (V)
VFINAL	POTEN	5.00000E-002	F	Final &E (V)
SCANRATE	QUANT	4.99999E+001	&Scan Rate (mV/s)
STEPSIZE	QUANT	1.00000E+000	St&ep Size (mV)
CYCLES	IQUANT	10	C&ycles (#)
IMODE	SELECTOR	1	I/E Range &Mode
IRANGE	QUANT	3.00000E+003	&Max Current (mA)
AREA	QUANT	5.00000E+000	Electrode &Area (cm^2)
ELECTRODETYPE	SELECTOR	0	Electrode Type
STRIPPING	TOGGLE	F	Used for Stripping
POLARITY	TOGGLE	F	Signal Polarity
CONDIT	TWOPARAM	F	5.00000E+000	4.00000E-001	Conditionin&g	Time(s)	E(V)
DELAY	TWOPARAM	F	3.00000E+001	0.00000E+000	Init. De&lay	Time(s)	Stab.(mV/s)
EQDELAY	QUANT	5.00000E+000	Equil. &Time (s)
IRCOMP	SELECTOR	0	IRCom&p
PFCOR	QUANT	5.00000E+001	PF Corr. (ohm)
SAMPLINGMODE	SELECTOR	2	Sampling &Mode
EOC	QUANT	0	Open Circuit (V)
PSTATMODEL	IQUANT	5	Pstat Model
PSTATSECTION	LABEL	REF3000-35148	Pstat Section
PSTATSERIALNO	LABEL	35148	Pstat Serial Number
CTRLMODE	IQUANT	1	Control Mode
ELECTROMETER	IQUANT	0	RE=0 or CS=1
IESTAB	IQUANT	2	I/E Stability
CASPEED	IQUANT	4	Control Amp Speed
CONVENTION	IQUANT	1	Current Convention
ICHRANGE	IQUANT	2	Ich Range
ICHRANGEMODE	TOGGLE	F	Ich Auto Range
ICHOFFSETENABLE	TOGGLE	F	Ich Offset Enable
ICHOFFSET	QUANT	0	Ich Offset (V)
ICHFILTER	IQUANT	2	Ich Filter
VCHRANGE	IQUANT	2	Vch Range
VCHRANGEMODE	TOGGLE	F	Vch Auto Range
VCHOFFSETENABLE	TOGGLE	F	Vch Offset Enable
VCHOFFSET	QUANT	0	Vch Offset (V)
VCHFILTER	IQUANT	2	Vch Filter
ACHRANGE	IQUANT	2	Ach Range
ACHOFFSETENABLE	TOGGLE	F	Ach Offset Enable
ACHOFFSET	QUANT	0	Ach Offset (V)
ACHFILTER	IQUANT	1	Ach Filter
IERANGELOWERLIMIT	IQUANT	2	I/E Range Lower Limit
IERANGEMODE	TOGGLE	F	I/E AutoRange
IERANGE	IQUANT	12	I/E Range
POSFEEDENABLE	TOGGLE	F	Positive Feedback IR Comp
POSFEEDRESISTANCE	QUANT	0	Positive Feedback Resistance (ohm)
ACHSELECT	IQUANT	0	Ach Select
SENSECABLEID	IQUANT	12	Sense Cable ID
PWRCABLEID	IQUANT	12	Power Cable ID
DCCALDATE	LABEL	11/30/2021	DC Calibration Date
ACCALDATE	LABEL		AC Calibration Date
THERMOSELECT	IQUANT	1	Thermo Select
FRAMEWORKVERSION	QUANT	7.06	Framework Version
INSTRUMENTVERSION	LABEL	4.30	Instrument Version
COMPLIANCEVOLTAGE	IQUANT	0	Compliance Voltage
CURVE1	TABLE
	Pt	T	Vf	Im	Vu	Sig	Ach	IERange	Over	Temp
	#	s	V vs. Ref.	A	V	V	V	#	bits	deg C
	0	0.02	5.05766E-002	-3.05095E-001	0.00000E+000	5.00000E-002	-1.44065E-004	12	..........a	-327.63
	24	0.5	7.42648E-002	-4.37783E-002	0.00000E+000	7.40000E-002	-5.56290E-003	12	..........a	-327.63
	48	0.98	9.82013E-002	2.13166E-002	0.00000E+000	9.80000E-002	2.84347E-005	12	..........a	-327.63
	72	1.46	1.22139E-001	3.44350E-002	0.00000E+000	1.22000E-001	-5.56957E-003	12	..........a	-327.63
	96	1.94	1.46063E-001	3.67864E-002	0.00000E+000	1.46000E-001	-5.57640E-003	12	..........a	-327.63
	120	2.42	1.69998E-001	3.74082E-002	0.00000E+000	1.70000E-001	-5.55723E-003	12	..........a	-327.63
	144	2.9	1.93999E-001	3.91028E-002	0.00000E+000	1.94000E-001	3.14347E-005	12	..........a	-327.63
	168	3.38	2.17974E-001	4.01609E-002	0.00000E+000	2.18000E-001	-5.57957E-003	12	..........a	-327.63
	192	3.86	2.41927E-001	3.98240E-002	0.00000E+000	2.42000E-001	-1.06807E-003	12	..........a	-327.63
	216	4.34	2.65881E-001	4.02389E-002	0.00000E+000	2.66000E-001	-5.57090E-003	12	..........a	-327.63
	240	4.82	2.89856E-001	3.90395E-002	0.00000E+000	2.90000E-001	1.17681E-005	12	..........a	-327.63
	264	5.3	3.13799E-001	3.47373E-002	0.00000E+000	3.14000E-001	4.69347E-005	12	..........a	-327.63
	288	5.78	3.37784E-001	3.10534E-002	0.00000E+000	3.38000E-001	-4.02319E-005	12	..........a	-327.63
	312	6.26	3.61719E-001	2.90653E-002	0.00000E+000	3.62000E-001	-2.89057E-003	12	..........a	-327.63
	336	6.74	3.85696E-001	2.79014E-002	0.00000E+000	3.86000E-001	-8.07319E-005	12	..........a	-327.63
	360	7.22	4.09621E-001	2.71832E-002	0.00000E+000	4.10000E-001	-2.17319E-005	12	..........a	-327.63
	384	7.7	4.33599E-001	2.68212E-002	0.00000E+000	4.34000E-001	-6.67319E-005	12	..........a	-327.63
	408	8.18	4.57551E-001	2.66409E-002	0.00000E+000	4.58000E-001	-3.45306E-003	12	..........a	-327.63
	432	8.66	4.81520E-001	2.66251E-002	0.00000E+000	4.82000E-001	-9.01399E-004	12	..........a	-327.63
	456	9.14	5.05443E-001	2.65824E-002	0.00000E+000	5.06000E-001	-5.08986E-005	12	..........a	-327.63
	480	9.62	5.29391E-001	2.66623E-002	0.00000E+000	5.30000E-001	-3.56526E-006	12	..........a	-327.63
	504	10.1	5.53330E-001	2.67062E-002	0.00000E+000	5.54000E-001	-6.31565E-004	12	..........a	-327.63
	528	10.58	5.77293E-001	2.67267E-002	0.00000E+000	5.78000E-001	-5.01540E-003	12	..........a	-327.63
	552	11.06	6.01270E-001	2.67475E-002	0.00000E+000	6.02000E-001	3.36014E-005	12	..........a	-327.63
	576	11.54	6.25232E-001	2.66788E-002	0.00000E+000	6.26000E-001	9.10140E-006	12	..........a	-327.63
	600	12.02	6.49201E-001	2.65269E-002	0.00000E+000	6.50000E-001	7.76807E-006	12	..........a	-327.63
	624	12.5	6.73153E-001	2.63034E-002	0.00000E+000	6.74000E-001	-4.68573E-003	12	..........a	-327.63
	648	12.98	6.97113E-001	2.61118E-002	0.00000E+000	6.98000E-001	4.36014E-005	12	..........a	-327.63
	672	13.46	7.21066E-001	2.60623E-002	0.00000E+000	7.22000E-001	3.42681E-005	12	..........a	-327.63
	696	13.94	7.45021E-001	2.64327E-002	0.00000E+000	7.46000E-001	1.44347E-005	12	..........a	-327.63
	720	14.42	7.68986E-001	2.77305E-002	0.00000E+000	7.70000E-001	-1.21732E-004	12	..........a	-327.63
	744	14.9	7.92943E-001	2.98416E-002	0.00000E+000	7.94000E-001	-6.03565E-004	12	..........a	-327.63
	768	15.38	8.16905E-001	3.32245E-002	0.00000E+000	8.18000E-001	-5.56056E-003	12	..........a	-327.63
	792	15.86	8.40899E-001	3.78796E-002	0.00000E+000	8.42000E-001	9.93474E-006	12	..........a	-327.63
	816	16.34	8.64850E-001	4.11017E-002	0.00000E+000	8.66000E-001	-5.57623E-003	12	..........a	-327.63
	840	16.82	8.88804E-001	4.16516E-002	0.00000E+000	8.90000E-001	-5.24390E-003	12	..........a	-327.63
	864	17.3	9.12744E-001	4.11557E-002	0.00000E+000	9.14000E-001	-5.54190E-003	12	..........a	-327.63
	888	17.78	9.36742E-001	4.06900E-002	0.00000E+000	9.38000E-001	1.21014E-005	12	..........a	-327.63
	912	18.26	9.60714E-001	4.03590E-002	0.00000E+000	9.62000E-001	-5.55773E-003	12	..........a	-327.63
	936	18.74	9.84630E-001	4.03229E-002	0.00000E+000	9.86000E-001	-2.70173E-003	12	..........a	-327.63
	960	19.22	1.00859E+000	4.05494E-002	0.00000E+000	1.01000E+000	-5.57990E-003	12	..........a	-327.63
	984	19.7	1.03255E+000	4.11301E-002	0.00000E+000	1.03400E+000	2.42681E-005	12	..........a	-327.63
	1008	20.18	1.05653E+000	4.19404E-002	0.00000E+000	1.05800E+000	4.19347E-005	12	..........a	-327.63
	1032	20.66	1.08046E+000	4.29443E-002	0.00000E+000	1.08200E+000	-8.61565E-004	12	..........a	-327.63
	1056	21.14	1.10443E+000	4.40811E-002	0.00000E+000	1.10600E+000	-3.97565E-004	12	..........a	-327.63
	1080	21.62	1.12839E+000	4.53298E-002	0.00000E+000	1.13000E+000	3.14347E-005	12	..........a	-327.63
	1104	22.1	1.15234E+000	4.67624E-002	0.00000E+000	1.15400E+000	6.02681E-005	12	..........a	-327.63
	1128	22.58	1.17631E+000	4.83971E-002	0.00000E+000	1.17800E+000	-1.15840E-003	12	..........a	-327.63
	1152	23.06	1.19626E+000	3.50221E-002	0.00000E+000	1.19800E+000	-3.84640E-003	12	..........a	-327.63
	1176	23.54	1.17234E+000	1.47170E-002	0.00000E+000	1.17400E+000	3.27681E-005	12	..........a	-327.63
	1200	24.02	1.14840E+000	8.16463E-003	0.00000E+000	1.15000E+000	4.12681E-005	12	..........a	-327.63
	1224	24.5	1.12447E+000	4.45968E-003	0.00000E+000	1.12600E+000	-1.43986E-005	12	..........a	-327.63
	1248	24.98	1.10048E+000	1.85276E-003	0.00000E+000	1.10200E+000	-2.05107E-003	12	..........a	-327.63
	1272	25.46	1.07653E+000	-1.72377E-004	0.00000E+000	1.07800E+000	-7.37565E-004	12	..........a	-327.63
	1296	25.94	1.05259E+000	-2.13750E-003	0.00000E+000	1.05400E+000	1.86014E-005	12	..........a	-327.63
	1320	26.42	1.02862E+000	-3.94745E-003	0.00000E+000	1.03000E+000	2.29347E-005	12	..........a	-327.63
	1344	26.9	1.00465E+000	-5.79955E-003	0.00000E+000	1.00600E+000	-2.47232E-004	12	..........a	-327.63
	1368	27.38	9.80685E-001	-7.82519E-003	0.00000E+000	9.82000E-001	-2.11307E-003	12	..........a	-327.63
	1392	27.86	9.56746E-001	-9.99063E-003	0.00000E+000	9.58000E-001	3.72681E-005	12	..........a	-327.63
	1416	28.34	9.32776E-001	-1.25073E-002	0.00000E+000	9.34000E-001	2.47681E-005	12	..........a	-327.63
	1440	28.82	9.08833E-001	-1.54352E-002	0.00000E+000	9.10000E-001	2.44347E-005	12	..........a	-327.63
	1464	29.3	8.84897E-001	-1.88183E-002	0.00000E+000	8.86000E-001	-3.10590E-003	12	..........a	-327.63
	1488	29.78	8.60890E-001	-2.26131E-002	0.00000E+000	8.62000E-001	4.32681E-005	12	..........a	-327.63
	1512	30.26	8.36955E-001	-2.64952E-002	0.00000E+000	8.38000E-001	2.47681E-005	12	..........a	-327.63
	1536	30.74	8.12964E-001	-3.00503E-002	0.00000E+000	8.14000E-001	6.74347E-005	12	..........a	-327.63
	1560	31.22	7.89019E-001	-3.25639E-002	0.00000E+000	7.90000E-001	-5.58890E-003	12	..........a	-327.63
	1584	31.7	7.65057E-001	-3.34753E-002	0.00000E+000	7.66000E-001	-1.88207E-003	12	..........a	-327.63
	1608	32.18	7.41122E-001	-3.32355E-002	0.00000E+000	7.42000E-001	-5.59957E-003	12	..........a	-327.63
	1632	32.66	7.17121E-001	-3.22639E-002	0.00000E+000	7.18000E-001	6.09347E-005	12	..........a	-327.63
	1656	33.14	6.93211E-001	-3.04483E-002	0.00000E+000	6.94000E-001	-5.58356E-003	12	..........a	-327.63
	1680	33.62	6.69229E-001	-2.81724E-002	0.00000E+000	6.70000E-001	-4.73223E-003	12	..........a	-327.63
	1704	34.1	6.45280E-001	-2.55672E-002	0.00000E+000	6.46000E-001	-5.59590E-003	12	..........a	-327.63
	1728	34.58	6.21313E-001	-2.20036E-002	0.00000E+000	6.22000E-001	4.26014E-005	12	..........a	-327.63
	1752	35.06	5.97358E-001	-1.90544E-002	0.00000E+000	5.98000E-001	1.86014E-005	12	..........a	-327.63
	1776	35.54	5.73390E-001	-1.75620E-002	0.00000E+000	5.74000E-001	-5.41290E-003	12	..........a	-327.63
	1800	36.02	5.49426E-001	-1.67542E-002	0.00000E+000	5.50000E-001	2.26014E-005	12	..........a	-327.63
	1824	36.5	5.25458E-001	-1.63311E-002	0.00000E+000	5.26000E-001	6.91014E-005	12	..........a	-327.63
	1848	36.98	5.01526E-001	-1.60367E-002	0.00000E+000	5.02000E-001	-3.93986E-005	12	..........a	-327.63
	1872	37.46	4.77508E-001	-1.57169E-002	0.00000E+000	4.78000E-001	-3.96007E-003	12	..........a	-327.63
	1896	37.94	4.53586E-001	-1.55423E-002	0.00000E+000	4.54000E-001	-1.33840E-003	12	..........a	-327.63
	1920	38.42	4.29657E-001	-1.55953E-002	0.00000E+000	4.30000E-001	5.27681E-005	12	..........a	-327.63
	1944	38.9	4.05689E-001	-1.56555E-002	0.00000E+000	4.06000E-001	-1.09565E-004	12	..........a	-327.63
	1968	39.38	3.81733E-001	-1.58658E-002	0.00000E+000	3.82000E-001	-2.98399E-004	12	..........a	-327.63
	1992	39.86	3.57784E-001	-1.67302E-002	0.00000E+000	3.58000E-001	-4.18140E-003	12	..........a	-327.63
	2016	40.34	3.33827E-001	-1.82084E-002	0.00000E+000	3.34000E-001	-2.89860E-006	12	..........a	-327.63
	2040	40.82	3.09857E-001	-2.09535E-002	0.00000E+000	3.10000E-001	-1.25232E-004	12	..........a	-327.63
	2064	41.3	2.85913E-001	-2.51478E-002	0.00000E+000	2.86000E-001	2.86014E-005	12	..........a	-327.63
	2088	41.78	2.61946E-001	-2.96260E-002	0.00000E+000	2.62000E-001	-5.58890E-003	12	..........a	-327.63
	2112	42.26	2.38006E-001	-3.25992E-002	0.00000E+000	2.38000E-001	4.22681E-005	12	..........a	-327.63
	2136	42.74	2.14024E-001	-3.49205E-002	0.00000E+000	2.14000E-001	1.86014E-005	12	..........a	-327.63
	2160	43.22	1.90072E-001	-3.61340E-002	0.00000E+000	1.90000E-001	2.74347E-005	12	..........a	-327.63
	2184	43.7	1.66108E-001	-3.56266E-002	0.00000E+000	1.66000E-001	-6.03899E-004	12	..........a	-327.63
	2208	44.18	1.42129E-001	-3.62105E-002	0.00000E+000	1.42000E-001	-4.53065E-004	12	..........a	-327.63
	2232	44.66	1.18158E-001	-3.80751E-002	0.00000E+000	1.18000E-001	4.12681E-005	12	..........a	-327.63
	2256	45.14	9.42242E-002	-4.47834E-002	0.00000E+000	9.40000E-002	7.07681E-005	12	..........a	-327.63
	2280	45.62	7.03546E-002	-7.74214E-002	0.00000E+000	7.00000E-002	4.36014E-005	12	..........a	-327.63
	2300	46.02	5.04779E-002	-1.74627E-001	0.00000E+000	5.00000E-002	-5.58273E-003	12	..........a	-327.63
CURVE2	TABLE
	Pt	T	Vf	Im	Vu	Sig	Ach	IERange	Over	Temp
	#	s	V vs. Ref.	A	V	V	V	#	bits	deg C
	2301	46.04	5.13688E-002	-1.22629E-001	0.00000E+000	5.10000E-002	-7.82232E-004	12	..........a	-327.63
	2325	46.52	7.51789E-002	9.09972E-002	0.00000E+000	7.50000E-002	-5.58490E-003	12	..........a	-327.63
	2349	47	9.91680E-002	4.68357E-002	0.00000E+000	9.90000E-002	5.14347E-005	12	..........a	-327.63
	2373	47.48	1.23151E-001	3.91466E-002	0.00000E+000	1.23000E-001	-5.58740E-003	12	..........a	-327.63
	2397	47.96	1.47093E-001	3.83130E-002	0.00000E+000	1.47000E-001	7.81014E-005	12	..........a	-327.63
	2421	48.44	1.71017E-001	3.89128E-002	0.00000E+000	1.71000E-001	-4.12273E-003	12	..........a	-327.63
	2445	48.92	1.94976E-001	4.05679E-002	0.00000E+000	1.95000E-001	8.77681E-005	12	..........a	-327.63
	2469	49.4	2.18964E-001	4.12636E-002	0.00000E+000	2.19000E-001	3.72681E-005	12	..........a	-327.63
	2493	49.88	2.42921E-001	4.05264E-002	0.00000E+000	2.43000E-001	3.01014E-005	12	..........a	-327.63
	2517	50.36	2.66867E-001	4.09463E-002	0.00000E+000	2.67000E-001	-2.07807E-003	12	..........a	-327.63
	2541	50.84	2.90835E-001	3.95096E-002	0.00000E+000	2.91000E-001	-1.10923E-003	12	..........a	-327.63
	2565	51.32	3.14783E-001	3.55515E-002	0.00000E+000	3.15000E-001	-2.43986E-005	12	..........a	-327.63
	2589	51.8	3.38759E-001	3.23401E-002	0.00000E+000	3.39000E-001	-1.06526E-006	12	..........a	-327.63
	2613	52.28	3.62709E-001	3.04082E-002	0.00000E+000	3.63000E-001	-1.12565E-004	12	..........a	-327.63
	2637	52.76	3.86671E-001	2.92907E-002	0.00000E+000	3.87000E-001	-8.68232E-004	12	..........a	-327.63
	2661	53.24	4.10619E-001	2.87015E-002	0.00000E+000	4.11000E-001	4.76807E-006	12	..........a	-327.63
	2685	53.72	4.34588E-001	2.84029E-002	0.00000E+000	4.35000E-001	-1.68986E-005	12	..........a	-327.63
	2709	54.2	4.58547E-001	2.83652E-002	0.00000E+000	4.59000E-001	2.17681E-005	12	..........a	-327.63
	2733	54.68	4.82493E-001	2.84208E-002	0.00000E+000	4.83000E-001	-2.98857E-003	12	..........a	-327.63
	2757	55.16	5.06446E-001	2.84728E-002	0.00000E+000	5.07000E-001	8.42681E-005	12	..........a	-327.63
	2781	55.64	5.30397E-001	2.85469E-002	0.00000E+000	5.31000E-001	3.19347E-005	12	..........a	-327.63
	2805	56.12	5.54327E-001	2.88929E-002	0.00000E+000	5.55000E-001	1.17768E-004	12	..........a	-327.63
	2829	56.6	5.78316E-001	2.87135E-002	0.00000E+000	5.79000E-001	-3.54457E-003	12	..........a	-327.63
	2853	57.08	6.02277E-001	2.87372E-002	0.00000E+000	6.03000E-001	-1.45507E-003	12	..........a	-327.63
	2877	57.56	6.26229E-001	2.87541E-002	0.00000E+000	6.27000E-001	3.07681E-005	12	..........a	-327.63
	2901	58.04	6.50201E-001	2.86208E-002	0.00000E+000	6.51000E-001	3.59347E-005	12	..........a	-327.63
	2925	58.52	6.74161E-001	2.83880E-002	0.00000E+000	6.75000E-001	-1.04232E-004	12	..........a	-327.63
	2949	59	6.98123E-001	2.82082E-002	0.00000E+000	6.99000E-001	-3.45557E-003	12	..........a	-327.63
	2973	59.48	7.22069E-001	2.81411E-002	0.00000E+000	7.23000E-001	-5.59390E-003	12	..........a	-327.63
	2997	59.96	7.46030E-001	2.84954E-002	0.00000E+000	7.47000E-001	3.52681E-005	12	..........a	-327.63
	3021	60.44	7.69991E-001	2.97103E-002	0.00000E+000	7.71000E-001	-5.59423E-003	12	..........a	-327.63
	3045	60.92	7.93941E-001	3.19330E-002	0.00000E+000	7.95000E-001	-4.15840E-003	12	..........a	-327.63
	3069	61.4	8.17920E-001	3.56505E-002	0.00000E+000	8.19000E-001	-5.58707E-003	12	..........a	-327.63
	3093	61.88	8.41943E-001	4.02038E-002	0.00000E+000	8.43000E-001	5.71014E-005	12	..........a	-327.63
	3117	62.36	8.65897E-001	4.29566E-002	0.00000E+000	8.67000E-001	-5.59123E-003	12	..........a	-327.63
	3141	62.84	8.89831E-001	4.29137E-002	0.00000E+000	8.91000E-001	-3.76057E-003	12	..........a	-327.63
	3165	63.32	9.13749E-001	4.20518E-002	0.00000E+000	9.15000E-001	-5.50306E-003	12	..........a	-327.63
	3189	63.8	9.37693E-001	4.15489E-002	0.00000E+000	9.39000E-001	1.20935E-004	12	..........a	-327.63
	3213	64.28	9.61705E-001	4.12558E-002	0.00000E+000	9.63000E-001	-5.06526E-006	12	..........a	-327.63
	3237	64.76	9.85631E-001	4.14013E-002	0.00000E+000	9.87000E-001	-7.82565E-004	12	..........a	-327.63
	3261	65.24	1.00958E+000	4.19202E-002	0.00000E+000	1.01100E+000	-4.25890E-003	12	..........a	-327.63
	3285	65.72	1.03355E+000	4.26764E-002	0.00000E+000	1.03500E+000	5.19347E-005	12	..........a	-327.63
	3309	66.2	1.05752E+000	4.35966E-002	0.00000E+000	1.05900E+000	4.72681E-005	12	..........a	-327.63
	3333	66.68	1.08147E+000	4.46338E-002	0.00000E+000	1.08300E+000	4.96014E-005	12	..........a	-327.63
	3357	67.16	1.10543E+000	4.58210E-002	0.00000E+000	1.10700E+000	-3.03673E-003	12	..........a	-327.63
	3381	67.64	1.12937E+000	4.71151E-002	0.00000E+000	1.13100E+000	4.69347E-005	12	..........a	-327.63
	3405	68.12	1.15335E+000	4.85360E-002	0.00000E+000	1.15500E+000	1.84347E-005	12	..........a	-327.63
	3429	68.6	1.17727E+000	5.01169E-002	0.00000E+000	1.17900E+000	1.67681E-005	12	..........a	-327.63
	3453	69.08	1.19525E+000	3.45379E-002	0.00000E+000	1.19700E+000	-3.78986E-005	12	..........a	-327.63
	3477	69.56	1.17133E+000	1.62584E-002	0.00000E+000	1.17300E+000	-1.44790E-003	12	..........a	-327.63
[...]
	21061	421.24	4.10637E-001	2.82775E-002	0.00000E+000	4.11000E-001	8.43474E-006	12	..........a	-327.63
	21085	421.72	4.34601E-001	2.79584E-002	0.00000E+000	4.35000E-001	2.32681E-005	12	..........a	-327.63
	21109	422.2	4.58559E-001	2.77584E-002	0.00000E+000	4.59000E-001	-5.56407E-003	12	..........a	-327.63
	21133	422.68	4.82501E-001	2.77445E-002	0.00000E+000	4.83000E-001	-2.01673E-003	12	..........a	-327.63
	21157	423.16	5.06453E-001	2.77204E-002	0.00000E+000	5.07000E-001	7.94347E-005	12	..........a	-327.63
	21181	423.64	5.30403E-001	2.79844E-002	0.00000E+000	5.31000E-001	3.71014E-005	12	..........a	-327.63
	21205	424.12	5.54332E-001	2.81318E-002	0.00000E+000	5.55000E-001	-1.11565E-004	12	..........a	-327.63
	21229	424.6	5.78322E-001	2.80834E-002	0.00000E+000	5.79000E-001	-2.60923E-003	12	..........a	-327.63
	21253	425.08	6.02294E-001	2.80496E-002	0.00000E+000	6.03000E-001	8.02681E-005	12	..........a	-327.63
	21277	425.56	6.26237E-001	2.82059E-002	0.00000E+000	6.27000E-001	4.44347E-005	12	..........a	-327.63
	21301	426.04	6.50209E-001	2.80389E-002	0.00000E+000	6.51000E-001	1.71014E-005	12	..........a	-327.63
	21325	426.52	6.74168E-001	2.77178E-002	0.00000E+000	6.75000E-001	-2.83107E-003	12	..........a	-327.63
	21349	427	6.98134E-001	2.75078E-002	0.00000E+000	6.99000E-001	5.67681E-005	12	..........a	-327.63
	21373	427.48	7.22074E-001	2.73007E-002	0.00000E+000	7.23000E-001	3.59347E-005	12	..........a	-327.63
	21397	427.96	7.46049E-001	2.76473E-002	0.00000E+000	7.47000E-001	3.76014E-005	12	..........a	-327.63
	21421	428.44	7.70004E-001	2.92061E-002	0.00000E+000	7.71000E-001	-3.26490E-003	12	..........a	-327.63
	21445	428.92	7.93958E-001	3.11250E-002	0.00000E+000	7.95000E-001	-9.24232E-004	12	..........a	-327.63
	21469	429.4	8.17942E-001	3.54109E-002	0.00000E+000	8.19000E-001	-3.23193E-006	12	..........a	-327.63
	21493	429.88	8.41952E-001	4.08275E-002	0.00000E+000	8.43000E-001	4.34347E-005	12	..........a	-327.63
	21517	430.36	8.65907E-001	4.33374E-002	0.00000E+000	8.67000E-001	-6.47399E-004	12	..........a	-327.63
	21541	430.84	8.89849E-001	4.28152E-002	0.00000E+000	8.91000E-001	-5.53990E-003	12	..........a	-327.63
	21565	431.32	9.13774E-001	4.19445E-002	0.00000E+000	9.15000E-001	1.36435E-004	12	..........a	-327.63
	21589	431.8	9.37720E-001	4.12016E-002	0.00000E+000	9.39000E-001	-5.49623E-003	12	..........a	-327.63
	21613	432.28	9.61724E-001	4.07937E-002	0.00000E+000	9.63000E-001	6.26807E-006	12	..........a	-327.63
	21637	432.76	9.85645E-001	4.07848E-002	0.00000E+000	9.87000E-001	-5.58490E-003	12	..........a	-327.63
	21661	433.24	1.00960E+000	4.10418E-002	0.00000E+000	1.01100E+000	2.04347E-005	12	..........a	-327.63
	21685	433.72	1.03356E+000	4.15815E-002	0.00000E+000	1.03500E+000	-5.58123E-003	12	..........a	-327.63
	21709	434.2	1.05754E+000	4.22586E-002	0.00000E+000	1.05900E+000	2.79347E-005	12	..........a	-327.63
	21733	434.68	1.08148E+000	4.30679E-002	0.00000E+000	1.08300E+000	-5.58556E-003	12	..........a	-327.63
	21757	435.16	1.10545E+000	4.39764E-002	0.00000E+000	1.10700E+000	-3.27232E-004	12	..........a	-327.63
	21781	435.64	1.12937E+000	4.50715E-002	0.00000E+000	1.13100E+000	4.51014E-005	12	..........a	-327.63
	21805	436.12	1.15337E+000	4.61939E-002	0.00000E+000	1.15500E+000	2.49347E-005	12	..........a	-327.63
	21829	436.6	1.17730E+000	4.76245E-002	0.00000E+000	1.17900E+000	-2.05899E-004	12	..........a	-327.63
	21853	437.08	1.19530E+000	3.19187E-002	0.00000E+000	1.19700E+000	-2.53923E-003	12	..........a	-327.63
	21877	437.56	1.17136E+000	1.40469E-002	0.00000E+000	1.17300E+000	1.01935E-004	12	..........a	-327.63
	21901	438.04	1.14745E+000	7.97132E-003	0.00000E+000	1.14900E+000	3.52681E-005	12	..........a	-327.63
	21925	438.52	1.12351E+000	4.42729E-003	0.00000E+000	1.12500E+000	7.94347E-005	12	..........a	-327.63
	21949	439	1.09954E+000	1.90192E-003	0.00000E+000	1.10100E+000	-4.02873E-003	12	..........a	-327.63
	21973	439.48	1.07555E+000	-2.07768E-004	0.00000E+000	1.07700E+000	-6.52635E-008	12	..........a	-327.63
	21997	439.96	1.05162E+000	-2.15695E-003	0.00000E+000	1.05300E+000	2.47681E-005	12	..........a	-327.63
	22021	440.44	1.02764E+000	-4.03367E-003	0.00000E+000	1.02900E+000	-1.07319E-005	12	..........a	-327.63
	22045	440.92	1.00367E+000	-5.95364E-003	0.00000E+000	1.00500E+000	-1.32757E-003	12	..........a	-327.63
	22069	441.4	9.79695E-001	-8.00047E-003	0.00000E+000	9.81000E-001	-9.42732E-004	12	..........a	-327.63
	22093	441.88	9.55746E-001	-1.02798E-002	0.00000E+000	9.57000E-001	7.43474E-006	12	..........a	-327.63
	22117	442.36	9.31774E-001	-1.29389E-002	0.00000E+000	9.33000E-001	4.86014E-005	12	..........a	-327.63
	22141	442.84	9.07838E-001	-1.58978E-002	0.00000E+000	9.09000E-001	2.24347E-005	12	..........a	-327.63
	22165	443.32	8.83924E-001	-1.94057E-002	0.00000E+000	8.85000E-001	-5.56857E-003	12	..........a	-327.63
	22189	443.8	8.59938E-001	-2.33373E-002	0.00000E+000	8.61000E-001	4.74347E-005	12	..........a	-327.63
	22213	444.28	8.35964E-001	-2.72103E-002	0.00000E+000	8.37000E-001	3.64347E-005	12	..........a	-327.63
	22237	444.76	8.11934E-001	-3.07249E-002	0.00000E+000	8.13000E-001	3.89347E-005	12	..........a	-327.63
	22261	445.24	7.88008E-001	-3.32136E-002	0.00000E+000	7.89000E-001	-3.75507E-003	12	..........a	-327.63
	22285	445.72	7.64072E-001	-3.42968E-002	0.00000E+000	7.65000E-001	-5.59373E-003	12	..........a	-327.63
	22309	446.2	7.40118E-001	-3.43769E-002	0.00000E+000	7.41000E-001	5.09347E-005	12	..........a	-327.63
	22333	446.68	7.16160E-001	-3.34713E-002	0.00000E+000	7.17000E-001	-5.61957E-003	12	..........a	-327.63
	22357	447.16	6.92198E-001	-3.15246E-002	0.00000E+000	6.93000E-001	-3.19732E-004	12	..........a	-327.63
	22381	447.64	6.68223E-001	-2.86916E-002	0.00000E+000	6.69000E-001	-5.60140E-003	12	..........a	-327.63
	22405	448.12	6.44287E-001	-2.54764E-002	0.00000E+000	6.45000E-001	-7.89860E-006	12	..........a	-327.63
	22429	448.6	6.20312E-001	-2.19190E-002	0.00000E+000	6.21000E-001	-5.59207E-003	12	..........a	-327.63
	22453	449.08	5.96363E-001	-1.92532E-002	0.00000E+000	5.97000E-001	1.17681E-005	12	..........a	-327.63
	22477	449.56	5.72376E-001	-1.78449E-002	0.00000E+000	5.73000E-001	-5.58890E-003	12	..........a	-327.63
	22501	450.04	5.48430E-001	-1.70801E-002	0.00000E+000	5.49000E-001	1.17681E-005	12	..........a	-327.63
	22525	450.52	5.24459E-001	-1.67140E-002	0.00000E+000	5.25000E-001	2.82681E-005	12	..........a	-327.63
	22549	451	5.00507E-001	-1.63375E-002	0.00000E+000	5.01000E-001	6.43474E-006	12	..........a	-327.63
	22573	451.48	4.76517E-001	-1.60681E-002	0.00000E+000	4.77000E-001	-4.96723E-003	12	..........a	-327.63
	22597	451.96	4.52569E-001	-1.58964E-002	0.00000E+000	4.53000E-001	-8.56732E-004	12	..........a	-327.63
	22621	452.44	4.28672E-001	-1.58749E-002	0.00000E+000	4.29000E-001	2.93474E-006	12	..........a	-327.63
	22645	452.92	4.04711E-001	-1.59558E-002	0.00000E+000	4.05000E-001	3.32681E-005	12	..........a	-327.63
	22669	453.4	3.80760E-001	-1.63911E-002	0.00000E+000	3.81000E-001	-1.35573E-003	12	..........a	-327.63
	22693	453.88	3.56811E-001	-1.72224E-002	0.00000E+000	3.57000E-001	-5.50873E-003	12	..........a	-327.63
	22717	454.36	3.32852E-001	-1.86589E-002	0.00000E+000	3.33000E-001	3.44347E-005	12	..........a	-327.63
	22741	454.84	3.08889E-001	-2.14755E-002	0.00000E+000	3.09000E-001	1.39347E-005	12	..........a	-327.63
	22765	455.32	2.84931E-001	-2.57291E-002	0.00000E+000	2.85000E-001	4.67681E-005	12	..........a	-327.63
	22789	455.8	2.60968E-001	-3.01442E-002	0.00000E+000	2.61000E-001	-3.12740E-003	12	..........a	-327.63
	22813	456.28	2.37026E-001	-3.35770E-002	0.00000E+000	2.37000E-001	4.02681E-005	12	..........a	-327.63
	22837	456.76	2.13058E-001	-3.65494E-002	0.00000E+000	2.13000E-001	3.27681E-005	12	..........a	-327.63
	22861	457.24	1.89096E-001	-3.80522E-002	0.00000E+000	1.89000E-001	4.04347E-005	12	..........a	-327.63
	22885	457.72	1.65120E-001	-3.72632E-002	0.00000E+000	1.65000E-001	-5.51399E-004	12	..........a	-327.63
	22909	458.2	1.41213E-001	-3.77734E-002	0.00000E+000	1.41000E-001	-1.08190E-003	12	..........a	-327.63
	22933	458.68	1.17224E-001	-4.04132E-002	0.00000E+000	1.17000E-001	3.14347E-005	12	..........a	-327.63
	22957	459.16	9.32627E-002	-5.20589E-002	0.00000E+000	9.30000E-002	5.77681E-005	12	..........a	-327.63
	22981	459.64	6.93582E-002	-1.09313E-001	0.00000E+000	6.90000E-002	-1.04399E-004	12	..........a	-327.63
	23000	460.02	5.05472E-002	-2.57067E-001	0.00000E+000	5.00000E-002	-5.60923E-003	12	..........a	-327.63
CURVE11	TABLE
	Pt	T	Vf	Im	Vu	Sig	Ach	IERange	Over	Temp
	#	s	V vs. Ref.	A	V	V	V	#	bits	deg C
	23001	460.04	5.05169E-002	-2.42183E-001	0.00000E+000	5.00000E-002	-6.33565E-004	12	..........a	-327.63